File: data/experiment/experiment_ZnO__ref_O-Kedge_[0,45,75].dat
# XDI/1.0 Demeter/0.9.26
# Demeter.output_filetype: multicolumn normalized mu(E)
# Element.symbol: O
# Element.edge: K
# Column.1: energy eV
# Column.2: 69_ZnO__ref__angle=0_deg__O-edge__Mon_SR_Io.dat
# Column.3: 70_ZnO__ref__angle=45_deg__O-edge__Mon_SR_Io.dat
# Column.4: 71_ZnO__ref__angle=75_deg__O-edge__Mon_SR_Io.dat
#------------------------
#  energy  69_ZnO__ref__angle=0_deg__O-edge__Mon_SR_Io.dat  70_ZnO__ref__angle=45_deg__O-edge__Mon_SR_Io.dat  71_ZnO__ref__angle=75_deg__O-edge__Mon_SR_Io.dat
  510.001      -0.113947      -0.115766      -0.164856
  511      -0.103557      -0.0983291  -0.144967
  512      -0.0860015  -0.0794575  -0.12374
  513      -0.0134427  -0.00933786  -0.0428599
  514      -0.0304548   0.00504358   0.0051166
  515      -0.0380608  -0.0534214  -0.10216
  516      -0.044208  -0.0444318  -0.0709715
  517.001      -0.0770353  -0.0707274  -0.0929542
  518.001      -0.0810017  -0.0764753  -0.0965626
  519      -0.0394054  -0.0364107  -0.0506729
  519.999       0.00528795   0.000246164  -0.0199575
  521      -0.00208453  -0.00457335  -0.0155003
  522      -0.0116961  -0.0117777  -0.0155124
  523.001       0.00849265   0.0105753   0.010475
  524       0.00503615   0.00867779   0.0114714
  525       0.00533675   0.0137157   0.0223292
  526       0.00365382  -0.000555553   0.00161919
  526.101       0.00559186  -0.00182928  -0.00271217
  526.2       0.00832914  -0.00287802  -0.00650984
  526.3       0.00885846  -0.00316552  -0.00955213
  526.4       0.0107783  -0.00369131  -0.0111807
  526.501       0.0119666  -0.00338624  -0.0109728
  526.6       0.0136486  -0.00135797  -0.00939826
  526.7       0.0152701   0.00268057  -0.00730889
  526.8       0.0175521   0.00530101  -0.00707416
  526.899       0.0179052   0.00640399  -0.00270394
  527       0.0224763   0.00826184   0.000236668
  527.1       0.0243424   0.0129041   0.00451698
  527.2       0.0300589   0.0214333   0.0072306
  527.3       0.0319992   0.0237899   0.0104092
  527.401       0.0331594   0.0264302   0.0146371
  527.5       0.0362646   0.0293171   0.0178595
  527.6       0.0394096   0.0315421   0.0233588
  527.7       0.0408329   0.0323443   0.0243022
  527.8       0.0430749   0.0314376   0.0260205
  527.9       0.0424665   0.0289061   0.0300678
  528       0.0420594   0.0326755   0.030086
  528.1       0.0410495   0.0330034   0.0305575
  528.2       0.0392508   0.0316289   0.0303225
  528.3       0.0377194   0.0303302   0.0288875
  528.4       0.0357189   0.030187   0.0304689
  528.5       0.0332338   0.0280386   0.0284996
  528.6       0.032917   0.0274948   0.0289028
  528.7       0.0301052   0.026857   0.0293445
  528.8       0.026933   0.0230696   0.0285274
  528.899       0.0251134   0.0223543   0.0277919
  529       0.0218183   0.0184627   0.0273042
  529.1       0.0199614   0.0179941   0.0267258
  529.2       0.0194008   0.0179599   0.027736
  529.3       0.0176312   0.0167233   0.02781
  529.4       0.015974   0.0166038   0.0288871
  529.5       0.0154895   0.0165542   0.0298447
  529.6       0.0135534   0.0161278   0.0310379
  529.7       0.0144715   0.0151196   0.0354637
  529.8       0.0157444   0.0175356   0.0347127
  529.9       0.0181262   0.0195819   0.0369246
  530       0.0209186   0.0228087   0.0374244
  530.101       0.0233195   0.0285131   0.0461196
  530.201       0.0296511   0.0354532   0.053318
  530.3       0.037657   0.0451734   0.0656609
  530.4       0.0516229   0.0580616   0.076914
  530.501       0.0689892   0.0770376   0.0948931
  530.6       0.0897696   0.0947943   0.115855
  530.7       0.113623       0.117788       0.136779
  530.8       0.140126       0.149245       0.16451
  530.9       0.170138       0.180664       0.19314
  531       0.202915       0.21397       0.225206
  531.1       0.235936       0.251463       0.261258
  531.2       0.276994       0.288411       0.298709
  531.3       0.320886       0.335434       0.341931
  531.4       0.367188       0.38414       0.385264
  531.5       0.418114       0.435127       0.435212
  531.6       0.470661       0.488032       0.489521
  531.7       0.527178       0.543062       0.538343
  531.8       0.587539       0.606565       0.595535
  531.899       0.645855       0.66568       0.651965
  532       0.710824       0.734779       0.714466
  532.1       0.777327       0.802128       0.775124
  532.2       0.851252       0.871799       0.837822
  532.3       0.922514       0.943206       0.904272
  532.4        1.0059        1.01875       0.969071
  532.5        1.07798        1.09289        1.03536
  532.6        1.15309        1.16762        1.09884
  532.701        1.22606        1.23733        1.15788
  532.8        1.28991        1.30009        1.21666
  532.901        1.35044        1.36169        1.27121
  533        1.4029        1.41719        1.32032
  533.101        1.45395        1.46808        1.36644
  533.2        1.4981        1.51621        1.41004
  533.3        1.53891        1.56131        1.4505
  533.4        1.57998        1.60337        1.49313
  533.5        1.61807        1.65091        1.53132
  533.6        1.65448        1.68717        1.56798
  533.7        1.69024        1.72547        1.6031
  533.801        1.72178        1.76336        1.6348
  533.9        1.75368        1.7968        1.66412
  534.001        1.78372        1.82836        1.69258
  534.1        1.81026        1.85434        1.71747
  534.2        1.83759        1.88142        1.74222
  534.3        1.85904        1.90668        1.76474
  534.4        1.87878        1.92795        1.78221
  534.5        1.89901        1.94489        1.79922
  534.6        1.91619        1.9626        1.81116
  534.701        1.93397        1.97988        1.82608
  534.8        1.95258        1.99393        1.84161
  534.9        1.97454        2.0147        1.85716
  535        1.99567        2.03462        1.8744
  535.101        2.01618        2.05678        1.89252
  535.2        2.0419        2.08348        1.91358
  535.299        2.06208        2.1078        1.93685
  535.4        2.08195        2.13205        1.9574
  535.5        2.1015        2.15374        1.98128
  535.6        2.11854        2.17656        2.002
  535.701        2.13614        2.19472        2.02244
  535.8        2.15679        2.21247        2.03865
  535.9        2.18106        2.23231        2.05674
  536        2.20592        2.25371        2.07392
  536.1        2.23215        2.27477        2.08731
  536.2        2.26443        2.29853        2.10013
  536.3        2.29852        2.32224        2.11603
  536.4        2.34147        2.34811        2.12381
  536.501        2.39519        2.37425        2.13019
  536.6        2.45745        2.40545        2.13322
  536.701        2.5446        2.44736        2.1287
  536.8        2.6494        2.49233        2.1233
  536.901        2.79276        2.55007        2.11186
  537        2.94965        2.61825        2.09812
  537.1        3.14214        2.69608        2.09079
  537.2        3.3219        2.77997        2.08967
  537.3        3.47973        2.85214        2.10102
  537.4        3.57548        2.89749        2.1171
  537.5        3.59546        2.90777        2.13229
  537.601        3.53098        2.86363        2.1333
  537.7        3.39491        2.78102        2.11287
  537.8        3.19365        2.64999        2.06989
  537.9        2.95173        2.49041        2.00875
  538        2.70602        2.32786        1.94068
  538.1        2.45583        2.16243        1.86148
  538.2        2.22199        2.00497        1.78824
  538.3        2.01377        1.86849        1.72289
  538.401        1.82113        1.74592        1.66168
  538.5        1.66182        1.64195        1.61157
  538.599        1.50453        1.54772        1.56397
  538.701        1.40774        1.47518        1.52548
  538.801        1.29633        1.41332        1.49758
  538.9        1.21173        1.36755        1.48138
  539        1.14212        1.3404        1.47924
  539.101        1.08133        1.32747        1.49538
  539.2        1.03877        1.3329        1.52471
  539.301        1.00224        1.35433        1.57818
  539.4       0.975999        1.38996        1.64676
  539.5       0.958328        1.44117        1.72473
  539.601       0.951251        1.49381        1.80882
  539.7       0.951231        1.54535        1.8828
  539.8       0.959247        1.58799        1.9386
  539.9       0.97387        1.60717        1.96814
  540       0.991426        1.60977        1.965
  540.101        1.01495        1.59083        1.92855
  540.2        1.03873        1.56086        1.87352
  540.3        1.06685        1.52099        1.80207
  540.401        1.09443        1.47952        1.72088
  540.5        1.12359        1.44216        1.64103
  540.601        1.14923        1.40207        1.56563
  540.701        1.17497        1.37039        1.49832
  540.8        1.1949        1.34208        1.43644
  540.9        1.20951        1.31904        1.38874
  541        1.22073        1.29602        1.34056
  541.101        1.22805        1.2753        1.30118
  541.199        1.23189        1.2553        1.26432
  541.3        1.23291        1.23573        1.23232
  541.4        1.23239        1.21119        1.19951
  541.5        1.22992        1.18973        1.16648
  541.6        1.225        1.1691        1.1359
  541.7        1.21524        1.14426        1.10177
  541.8        1.20549        1.11768        1.06914
  541.9        1.19118        1.09086        1.03372
  542        1.17985        1.06965        1.00285
  542.1        1.16896        1.04817       0.96981
  542.2        1.16084        1.02994       0.93996
  542.301        1.15814        1.01304       0.913598
  542.4        1.16556        1.00298       0.891235
  542.499        1.17896        1.00001       0.870772
  542.6        1.19759        1.00014       0.853497
  542.7        1.22423        1.00649       0.840234
  542.8        1.25319        1.01086       0.829678
  542.9        1.28478        1.02401       0.820453
  542.999        1.31119        1.03403       0.814537
  543.1        1.33419        1.03915       0.807421
  543.2        1.34793        1.04519       0.803666
  543.301        1.35219        1.04363       0.80128
  543.401        1.34595        1.03782       0.800047
  543.5        1.32977        1.0272       0.795147
  543.6        1.30105        1.01595       0.794404
  543.7        1.26518       0.998484       0.793721
  543.8        1.22389       0.976086       0.791635
  543.9        1.17907       0.951683       0.790085
  544        1.12908       0.925856       0.787431
  544.1        1.07931       0.903731       0.787614
  544.2        1.03066       0.884679       0.789
  544.3       0.986601       0.867597       0.788279
  544.399       0.946704       0.849329       0.79002
  544.5       0.910254       0.833337       0.792352
  544.599       0.879685       0.822477       0.798151
  544.7       0.855889       0.812922       0.803493
  544.8       0.835888       0.809528       0.812715
  544.899       0.821222       0.807442       0.821118
  545.001       0.810863       0.810519       0.829468
  545.101       0.800372       0.811682       0.840164
  545.2       0.791189       0.815081       0.854452
  545.3       0.781363       0.818375       0.867738
  545.4       0.773217       0.822653       0.881132
  545.5       0.762843       0.82683       0.89102
  545.6       0.752144       0.819213       0.902091
  545.7       0.74196       0.824336       0.914373
  545.8       0.729954       0.823048       0.923254
  545.9       0.718385       0.820164       0.927863
  546       0.704927       0.815701       0.931385
  546.1       0.690883       0.811039       0.932497
  546.2       0.678116       0.804337       0.931401
  546.301       0.662798       0.797173       0.928166
  546.4       0.652028       0.788142       0.924045
  546.5       0.640946       0.780697       0.91896
  546.6       0.630762       0.775904       0.913706
  546.7       0.623551       0.770069       0.911055
  546.8       0.615991       0.766363       0.908625
  546.901       0.61278       0.764287       0.905772
  547       0.611877       0.761515       0.903194
  547.1       0.612185       0.760317       0.902437
  547.2       0.613581       0.762       0.902047
  547.3       0.618314       0.766232       0.900205
  547.4       0.622886       0.769081       0.899724
  547.501       0.630057       0.769797       0.897956
  547.6       0.636463       0.76755       0.894196
  547.701       0.644993       0.773814       0.892995
  547.8       0.654581       0.779675       0.888759
  547.901       0.660999       0.777871       0.885427
  548       0.670653       0.780793       0.882498
  548.1       0.67963       0.783187       0.880122
  548.2       0.690594       0.788629       0.879477
  548.301       0.702326       0.790655       0.879811
  548.4       0.714017       0.797736       0.879874
  548.501       0.729376       0.810407       0.882538
  548.6       0.742386       0.820659       0.887066
  548.701       0.761024       0.832615       0.893787
  548.799       0.778422       0.846884       0.903237
  548.9       0.799554       0.865873       0.914951
  549.001       0.819802       0.882776       0.929235
  549.1       0.842831       0.905717       0.945588
  549.2       0.864015       0.92377       0.962474
  549.301       0.886215       0.944602       0.979214
  549.4       0.905696       0.96384       0.995256
  549.501       0.92361       0.976485        1.00992
  549.601       0.941562       0.990755        1.02203
  549.7       0.955206        1.00258        1.03222
  549.8       0.967963        1.01373        1.04409
  549.901       0.97722        1.02464        1.05161
  550       0.985849        1.03309        1.06108
  550.25        1.00127        1.05305        1.08132
  550.5        1.01641        1.07926        1.10585
  550.75        1.03628        1.11002        1.13874
  551        1.06271        1.14282        1.17548
  551.25        1.09283        1.17683        1.20484
  551.501        1.1266        1.20826        1.23099
  551.75        1.16281        1.23399        1.24918
  552        1.20234        1.25667        1.25707
  552.25        1.24045        1.26864        1.25602
  552.5        1.27534        1.27794        1.24629
  552.75        1.30387        1.27981        1.22908
  553        1.32482        1.27472        1.20746
  553.25        1.3455        1.27149        1.18611
  553.501        1.36284        1.26487        1.16181
  553.75        1.37834        1.26111        1.14166
  554.001        1.40086        1.26312        1.12569
  554.25        1.43037        1.2726        1.11837
  554.5        1.46505        1.28647        1.11651
  554.75        1.49916        1.30314        1.1229
  555        1.52544        1.32193        1.13235
  555.25        1.54223        1.34174        1.14731
  555.501        1.54621        1.354        1.16456
  555.751        1.53788        1.35898        1.18211
  556.001        1.52115        1.36467        1.20382
  556.25        1.49823        1.37088        1.22678
  556.5        1.4697        1.37159        1.25319
  556.751        1.43684        1.37219        1.28278
  557        1.40132        1.37102        1.31142
  557.25        1.3632        1.37117        1.33901
  557.501        1.32265        1.36944        1.36269
  557.75        1.28401        1.36346        1.38306
  558.001        1.24679        1.35258        1.39654
  558.25        1.21099        1.33914        1.40128
  558.5        1.1764        1.31883        1.39435
  558.751        1.14438        1.2906        1.37855
  559        1.11425        1.26168        1.35402
  559.25        1.0882        1.23172        1.32133
  559.5        1.06777        1.199        1.28895
  559.75        1.04952        1.16713        1.24984
  560        1.03596        1.13916        1.21468
  560.25        1.02647        1.11689        1.18205
  560.5        1.02124        1.09949        1.15221
  560.75        1.01944        1.0819        1.12823
  561        1.01306        1.06526        1.10526
  561.251        1.00978        1.05141        1.0858
  561.5        1.00362        1.03779        1.06746
  561.751       0.998984        1.02473        1.05035
  562       0.990146        1.00932        1.03284
  562.25       0.980509       0.995855        1.0166
  562.5       0.969145       0.9809       0.99977
  562.75       0.959021       0.967511       0.986111
  563       0.950811       0.956324       0.972918
  563.251       0.942833       0.946611       0.961897
  563.5       0.935796       0.939857       0.956725
  563.751       0.92978       0.937903       0.953248
  564       0.925771       0.93358       0.952281
  564.251       0.922729       0.933828       0.954631
  564.5       0.923652       0.943366       0.959986
  564.75       0.924777       0.949292       0.968622
  565       0.926399       0.954835       0.978174
  565.25       0.930043       0.960005       0.989186
  565.5       0.931588       0.966063       0.998958
  565.75       0.935274       0.976192        1.00769
  566       0.93704       0.983925        1.01736
  566.25       0.941219       0.989452        1.02681
  566.5       0.94749       0.99634        1.03462
  566.751       0.951645       0.998461        1.04074
  567.001       0.957849        1.00494        1.04644
  567.251       0.965087        1.0124        1.04827
  567.5       0.971514        1.01571        1.04804
  567.751       0.979061        1.01516        1.046
  568.001       0.988091        1.01658        1.04103
  568.25       0.995625        1.01587        1.03464
  568.5        1.00234        1.01979        1.02995
  568.75        1.00867        1.01904        1.0232
  569        1.01435        1.01842        1.01854
  569.25        1.01846        1.01571        1.01327
  569.501        1.02122        1.01551        1.00933
  569.75        1.02445        1.01405        1.00706
  570        1.02667        1.01744        1.00549
  570.999        1.03129        1.02031        1.00736
  572        1.03119        1.02148        1.01648
  573        1.0307        1.03245        1.02946
  574.001        1.02527        1.02991        1.0377
  575        1.01832        1.0229        1.03718
  576       0.991701       0.996129        1.00252
  577       0.976497       0.971079       0.975231
  578       0.968763       0.957542       0.947576
  579       0.979962       0.962511       0.95327
  580       0.997466       0.979419       0.965773
  581        1.01395       0.994181       0.982712
  582        1.02387        1.01521        1.00391
  583.001        1.03324        1.03565        1.039
  584        1.04385        1.06324        1.08116
  585        1.05257        1.0896        1.11281
  586        1.05584        1.09659        1.12671
  587        1.055        1.09381        1.12028
  588.001        1.04106        1.07074        1.09494
  589        1.02231        1.04179        1.05871
  590       0.991399        1.00739        1.01961
  591       0.96485       0.973097       0.985646
  592.001       0.936651       0.949506       0.963132
  593.001       0.920902       0.933388       0.952261
  594       0.91388       0.927434       0.947248
  595       0.916326       0.924803       0.93952
  596       0.915901       0.921587       0.931096
  597       0.920096       0.916833       0.924665
  598       0.920756       0.918561       0.922339
  599       0.926905       0.920143       0.924658
  600       0.932403       0.925874       0.930814
  601       0.940712       0.935957       0.941204
  602       0.950503       0.945827       0.946315
  603       0.957436       0.949873       0.951056
  604       0.956548       0.95108       0.952971
  605.001       0.953624       0.950696       0.952413
  606       0.953941       0.948464       0.950356
  607       0.954547       0.951239       0.954655
  608       0.957557       0.954788       0.957828
  609       0.963837       0.962354       0.964432
  609.999       0.968455       0.966997       0.970531
  611       0.975707       0.975481       0.97723
  612       0.979357       0.97869       0.982002
  613       0.985062       0.988684       0.988638
  614.001       0.990132       0.991201       0.994764
  614.999       0.997941       0.998235       0.998744
  616.001        1.00599        1.00719        1.0054
  617        1.01243        1.00812        1.00892
  618        1.0232        1.01641        1.01093
  619        1.03113        1.02272        1.01318
  619.999        1.03884        1.02686        1.01594
  621        1.04475        1.03201        1.01806
  621.999        1.04874        1.0328        1.01911
  623        1.04963        1.03623        1.01988
  624        1.04862        1.03046        1.01865
  625.001        1.04372        1.02761        1.01366
  625.999        1.03601        1.02264        1.00909
  627.001        1.02525        1.01436        1.00298
  628        1.01493        1.0076        1.00095
  629        1.00598       0.999804        1.00032
  630       0.997462       0.997199       0.995587
  631       0.991606       0.990866       0.992776
  631.999       0.988854       0.985584       0.98669
  633       0.986862       0.982417       0.981824
  634       0.987517       0.978265       0.975073
  635.001       0.987906       0.977957       0.969497
  636       0.986663       0.975995       0.964722
  637       0.985525       0.969455       0.960114
  637.999       0.982842       0.969901       0.954278
  639.001       0.980734       0.96232       0.947797
  640       0.976175       0.958518       0.943636
  641       0.975198       0.954585       0.939255
  642       0.972322       0.951283       0.934801
  643       0.970819       0.946117       0.930999
  644       0.969042       0.946806       0.928805
  645       0.968981       0.945247       0.928364
  646.001       0.966236       0.943662       0.927525
  647.001       0.968304       0.94443       0.92564
  648       0.967876       0.946481       0.926048
  649       0.971367       0.948443       0.928667
  650       0.976228       0.952361       0.929757